# lambda [nm], refrac_index_real, refrac_index_imag
187.85484454 1.070e+00 1.212e+00
191.62936228 1.100e+00 1.232e+00
195.25070456 1.120e+00 1.255e+00
199.33150706 1.140e+00 1.277e+00
203.25278261 1.150e+00 1.296e+00
207.33143377 1.180e+00 1.312e+00
211.93879896 1.200e+00 1.325e+00
216.37730784 1.220e+00 1.336e+00
221.40035249 1.250e+00 1.342e+00
226.24853539 1.260e+00 1.344e+00
231.31380111 1.280e+00 1.357e+00
237.06347494 1.280e+00 1.367e+00
242.63052328 1.300e+00 1.378e+00
248.96425179 1.310e+00 1.389e+00
255.11151727 1.330e+00 1.393e+00
261.57003670 1.350e+00 1.387e+00
268.94619825 1.380e+00 1.372e+00
276.13406992 1.410e+00 1.331e+00
284.36742521 1.410e+00 1.264e+00
292.41555989 1.390e+00 1.161e+00
300.93251795 1.340e+00 9.640e-01
310.73733683 1.130e+00 6.160e-01
320.37260308 8.100e-01 3.920e-01
331.50854918 1.700e-01 8.290e-01
342.49778286 1.400e-01 1.142e+00
354.24056398 1.000e-01 1.419e+00
367.90563025 7.000e-02 1.657e+00
381.48983813 5.000e-02 1.864e+00
397.38524806 5.000e-02 2.070e+00
413.28065798 5.000e-02 2.275e+00
430.50068539 4.000e-02 2.462e+00
450.85162689 4.000e-02 2.657e+00
471.42280378 5.000e-02 2.869e+00
495.93678957 5.000e-02 3.093e+00
520.94200586 5.000e-02 3.324e+00
548.60264333 6.000e-02 3.586e+00
582.08543377 5.000e-02 3.858e+00
616.83680295 6.000e-02 4.152e+00
659.49041167 5.000e-02 4.483e+00
704.45566701 4.000e-02 4.838e+00
756.00120362 3.000e-02 5.242e+00
821.08739996 4.000e-02 5.727e+00
891.97264312 4.000e-02 6.312e+00
984.00156662 4.000e-02 6.992e+00
1087.58067889 4.000e-02 7.795e+00
1215.53134700 9.000e-02 8.828e+00
1393.08086959 1.300e-01 1.010e+01
1610.18438174 1.500e-01 1.185e+01
1937.25308428 2.400e-01 1.408e+01
