#lambda [nm], refrac_index_real, refrac_index_imag
200   1.396   1.10E-7
225   1.373   4.90E-8
250   1.362   3.35E-8
275   1.354   2.35E-8
300   1.349   1.60E-8
325   1.346   1.08E-8
350   1.343   6.50E-9
375   1.341   3.50E-9
400   1.339   1.86E-9
425   1.338   1.30E-9
450   1.337   1.02E-9
475   1.336   9.35E-10
500   1.335   1.00E-9
525   1.334   1.32E-9
550   1.333   1.96E-9
575   1.333   3.60E-9
600   1.332   1.09E-8
625   1.332   1.39E-8
650   1.331   1.64E-8
675   1.331   2.23E-8
700   1.331   3.35E-8
725   1.330   9.15E-8
750   1.330   1.56E-7
775   1.330   1.48E-7
800   1.329   1.25E-7
825   1.329   1.82E-7
850   1.329   2.93E-7
875   1.328   3.91E-7
900   1.328   4.86E-7
925   1.328   1.06E-6
950   1.327   2.93E-6
975   1.327   3.48E-6
1000  1.327   2.89E-6
1200  1.324   9.89E-6
1400  1.321   1.38E-4
1600  1.317   8.55E-5
1800  1.312   1.15E-4
2000  1.306   1.10E-3
